Listing of POP Encircled Power

File : C:\Users\ruhllab\Desktop\Spider_Zemax\files_for_Lorenzo\150_Spider_beams.zmx
Title: Lens has no title.
Date : 9/17/2018


Wavelength 2306.00000 Âµm in index 1.00000 at 0.0000 mm
Display X Width = 1.4438E+004, Y Height = 1.4438E+004 Millimeters
Grid size (X by Y): 1024 by 1024

Total Power: 1.0000 Watts

        Radius        % Power
 0.000000E+000	      0.000000
 2.819843E+001	      0.005855
 5.639686E+001	      0.023419
 8.459529E+001	      0.055334
 1.127937E+002	      0.094365
 1.409922E+002	      0.148861
 1.691906E+002	      0.202194
 1.973890E+002	      0.265018
 2.255874E+002	      0.329502
 2.537859E+002	      0.399055
 2.819843E+002	      0.461515
 3.101827E+002	      0.523641
 3.383812E+002	      0.579194
 3.665796E+002	      0.630611
 3.947780E+002	      0.674059
 4.229765E+002	      0.713214
 4.511749E+002	      0.742934
 4.793733E+002	      0.766982
 5.075718E+002	      0.784762
 5.357702E+002	      0.797330
 5.639686E+002	      0.805573
 5.921670E+002	      0.810778
 6.203655E+002	      0.813584
 6.485639E+002	      0.815051
 6.767623E+002	      0.815970
 7.049608E+002	      0.817065
 7.331592E+002	      0.818890
 7.613576E+002	      0.821752
 7.895561E+002	      0.825674
 8.177545E+002	      0.830882
 8.459529E+002	      0.837230
 8.741514E+002	      0.844159
 9.023498E+002	      0.851681
 9.305482E+002	      0.859560
 9.587466E+002	      0.867148
 9.869451E+002	      0.874481
 1.015144E+003	      0.881093
 1.043342E+003	      0.886782
 1.071540E+003	      0.891670
 1.099739E+003	      0.895536
 1.127937E+003	      0.898451
 1.156136E+003	      0.900531
 1.184334E+003	      0.901881
 1.212533E+003	      0.902689
 1.240731E+003	      0.903149
 1.268929E+003	      0.903451
 1.297128E+003	      0.903759
 1.325326E+003	      0.904219
 1.353525E+003	      0.904946
 1.381723E+003	      0.906006
 1.409922E+003	      0.907452
 1.438120E+003	      0.909300
 1.466318E+003	      0.911498
 1.494517E+003	      0.914006
 1.522715E+003	      0.916675
 1.550914E+003	      0.919488
 1.579112E+003	      0.922313
 1.607311E+003	      0.925000
 1.635509E+003	      0.927553
 1.663707E+003	      0.929806
 1.691906E+003	      0.931752
 1.720104E+003	      0.933371
 1.748303E+003	      0.934634
 1.776501E+003	      0.935556
 1.804700E+003	      0.936203
 1.832898E+003	      0.936600
 1.861096E+003	      0.936843
 1.889295E+003	      0.936988
 1.917493E+003	      0.937125
 1.945692E+003	      0.937314
 1.973890E+003	      0.937625
 2.002089E+003	      0.938101
 2.030287E+003	      0.938778
 2.058485E+003	      0.939661
 2.086684E+003	      0.940736
 2.114882E+003	      0.941996
 2.143081E+003	      0.943397
 2.171279E+003	      0.944887
 2.199478E+003	      0.946410
 2.227676E+003	      0.947893
 2.255874E+003	      0.949302
 2.284073E+003	      0.950598
 2.312271E+003	      0.951715
 2.340470E+003	      0.952640
 2.368668E+003	      0.953375
 2.396867E+003	      0.953912
 2.425065E+003	      0.954280
 2.453263E+003	      0.954506
 2.481462E+003	      0.954629
 2.509660E+003	      0.954697
 2.537859E+003	      0.954756
 2.566057E+003	      0.954850
 2.594256E+003	      0.955021
 2.622454E+003	      0.955297
 2.650652E+003	      0.955698
 2.678851E+003	      0.956236
 2.707049E+003	      0.956903
 2.735248E+003	      0.957685
 2.763446E+003	      0.958571
 2.791645E+003	      0.959510
 2.819843E+003	      0.960476
 2.848042E+003	      0.961444
 2.876240E+003	      0.962356
 2.904438E+003	      0.963199
 2.932637E+003	      0.963941
 2.960835E+003	      0.964561
 2.989034E+003	      0.965059
 3.017232E+003	      0.965432
 3.045431E+003	      0.965691
 3.073629E+003	      0.965858
 3.101827E+003	      0.965952
 3.130026E+003	      0.966005
 3.158224E+003	      0.966047
 3.186423E+003	      0.966108
 3.214621E+003	      0.966215
 3.242820E+003	      0.966392
 3.271018E+003	      0.966651
 3.299216E+003	      0.967005
 3.327415E+003	      0.967452
 3.355613E+003	      0.967986
 3.383812E+003	      0.968595
 3.412010E+003	      0.969253
 3.440209E+003	      0.969942
 3.468407E+003	      0.970637
 3.496605E+003	      0.971307
 3.524804E+003	      0.971938
 3.553002E+003	      0.972500
 3.581201E+003	      0.972975
 3.609399E+003	      0.973358
 3.637598E+003	      0.973651
 3.665796E+003	      0.973855
 3.693994E+003	      0.973986
 3.722193E+003	      0.974058
 3.750391E+003	      0.974096
 3.778590E+003	      0.974122
 3.806788E+003	      0.974162
 3.834987E+003	      0.974235
 3.863185E+003	      0.974363
 3.891383E+003	      0.974555
 3.919582E+003	      0.974823
 3.947780E+003	      0.975168
 3.975979E+003	      0.975577
 4.004177E+003	      0.976049
 4.032376E+003	      0.976567
 4.060574E+003	      0.977102
 4.088772E+003	      0.977647
 4.116971E+003	      0.978171
 4.145169E+003	      0.978662
 4.173368E+003	      0.979101
 4.201566E+003	      0.979471
 4.229765E+003	      0.979770
 4.257963E+003	      0.980000
 4.286161E+003	      0.980162
 4.314360E+003	      0.980264
 4.342558E+003	      0.980322
 4.370757E+003	      0.980353
 4.398955E+003	      0.980375
 4.427154E+003	      0.980405
 4.455352E+003	      0.980463
 4.483550E+003	      0.980563
 4.511749E+003	      0.980715
 4.539947E+003	      0.980925
 4.568146E+003	      0.981196
 4.596344E+003	      0.981526
 4.624543E+003	      0.981909
 4.652741E+003	      0.982325
 4.680940E+003	      0.982763
 4.709138E+003	      0.983208
 4.737336E+003	      0.983649
 4.765535E+003	      0.984057
 4.793733E+003	      0.984424
 4.821932E+003	      0.984742
 4.850130E+003	      0.985004
 4.878329E+003	      0.985205
 4.906527E+003	      0.985348
 4.934725E+003	      0.985442
 4.962924E+003	      0.985496
 4.991122E+003	      0.985524
 5.019321E+003	      0.985541
 5.047519E+003	      0.985564
 5.075718E+003	      0.985606
 5.103916E+003	      0.985682
 5.132114E+003	      0.985803
 5.160313E+003	      0.985973
 5.188511E+003	      0.986197
 5.216710E+003	      0.986471
 5.244908E+003	      0.986793
 5.273107E+003	      0.987151
 5.301305E+003	      0.987530
 5.329503E+003	      0.987919
 5.357702E+003	      0.988301
 5.385900E+003	      0.988666
 5.414099E+003	      0.988997
 5.442297E+003	      0.989284
 5.470496E+003	      0.989522
 5.498694E+003	      0.989706
 5.526892E+003	      0.989841
 5.555091E+003	      0.989929
 5.583289E+003	      0.989981
 5.611488E+003	      0.990007
 5.639686E+003	      0.990021
 5.667885E+003	      0.990038
 5.696083E+003	      0.990071
 5.724281E+003	      0.990132
 5.752480E+003	      0.990231
 5.780678E+003	      0.990375
 5.808877E+003	      0.990569
 5.837075E+003	      0.990809
 5.865274E+003	      0.991092
 5.893472E+003	      0.991409
 5.921670E+003	      0.991749
 5.949869E+003	      0.992102
 5.978067E+003	      0.992453
 6.006266E+003	      0.992788
 6.034464E+003	      0.993095
 6.062663E+003	      0.993365
 6.090861E+003	      0.993593
 6.119059E+003	      0.993773
 6.147258E+003	      0.993905
 6.175456E+003	      0.993995
 6.203655E+003	      0.994049
 6.231853E+003	      0.994077
 6.260052E+003	      0.994092
 6.288250E+003	      0.994105
 6.316448E+003	      0.994131
 6.344647E+003	      0.994181
 6.372845E+003	      0.994265
 6.401044E+003	      0.994390
 6.429242E+003	      0.994559
 6.457441E+003	      0.994774
 6.485639E+003	      0.995030
 6.513838E+003	      0.995322
 6.542036E+003	      0.995640
 6.570234E+003	      0.995972
 6.598433E+003	      0.996305
 6.626631E+003	      0.996628
 6.654830E+003	      0.996928
 6.683028E+003	      0.997194
 6.711227E+003	      0.997422
 6.739425E+003	      0.997604
 6.767623E+003	      0.997740
 6.795822E+003	      0.997834
 6.824020E+003	      0.997892
 6.852219E+003	      0.997923
 6.880417E+003	      0.997937
 6.908616E+003	      0.997948
 6.936814E+003	      0.997968
 6.965012E+003	      0.998009
 6.993211E+003	      0.998081
 7.021409E+003	      0.998192
 7.049608E+003	      0.998347
 7.077806E+003	      0.998546
 7.106005E+003	      0.998788
 7.134203E+003	      0.999076
 7.162401E+003	      0.999387
 7.190600E+003	      0.999715
 7.218798E+003	      0.999801
