#Listing of POP Encircled Power
#
#File : C:\Users\ruhllab\Desktop\Spider_Zemax\files_for_Lorenzo\150_Spider_beams.zmx
#Title: Lens has no title.
#Date : 9/10/2018
#
#
#Wavelength 2017.00000 Âµm in index 1.00000 at 0.0000 mm
#Display X Width = 1.2628E+004, Y Height = 1.2628E+004 Millimeters
#Grid size (X by Y): 1024 by 1024
#
#Total Power: 1.0000 Watts
#
#        Radius        % Power
 0.000000E+000	      0.000000
 2.466446E+001	      0.005855
 4.932891E+001	      0.023419
 7.399337E+001	      0.055334
 9.865782E+001	      0.094365
 1.233223E+002	      0.148860
 1.479867E+002	      0.202193
 1.726512E+002	      0.265016
 1.973156E+002	      0.329500
 2.219801E+002	      0.399053
 2.466446E+002	      0.461512
 2.713090E+002	      0.523638
 2.959735E+002	      0.579191
 3.206379E+002	      0.630608
 3.453024E+002	      0.674056
 3.699668E+002	      0.713211
 3.946313E+002	      0.742930
 4.192957E+002	      0.766979
 4.439602E+002	      0.784759
 4.686247E+002	      0.797327
 4.932891E+002	      0.805570
 5.179536E+002	      0.810775
 5.426180E+002	      0.813581
 5.672825E+002	      0.815049
 5.919469E+002	      0.815968
 6.166114E+002	      0.817063
 6.412758E+002	      0.818888
 6.659403E+002	      0.821751
 6.906048E+002	      0.825672
 7.152692E+002	      0.830881
 7.399337E+002	      0.837229
 7.645981E+002	      0.844158
 7.892626E+002	      0.851680
 8.139270E+002	      0.859559
 8.385915E+002	      0.867147
 8.632560E+002	      0.874480
 8.879204E+002	      0.881092
 9.125849E+002	      0.886782
 9.372493E+002	      0.891670
 9.619138E+002	      0.895536
 9.865782E+002	      0.898451
 1.011243E+003	      0.900531
 1.035907E+003	      0.901880
 1.060572E+003	      0.902689
 1.085236E+003	      0.903149
 1.109901E+003	      0.903450
 1.134565E+003	      0.903758
 1.159229E+003	      0.904218
 1.183894E+003	      0.904946
 1.208558E+003	      0.906006
 1.233223E+003	      0.907451
 1.257887E+003	      0.909299
 1.282552E+003	      0.911497
 1.307216E+003	      0.914006
 1.331881E+003	      0.916675
 1.356545E+003	      0.919487
 1.381210E+003	      0.922312
 1.405874E+003	      0.925000
 1.430538E+003	      0.927553
 1.455203E+003	      0.929806
 1.479867E+003	      0.931751
 1.504532E+003	      0.933371
 1.529196E+003	      0.934634
 1.553861E+003	      0.935556
 1.578525E+003	      0.936203
 1.603190E+003	      0.936600
 1.627854E+003	      0.936843
 1.652519E+003	      0.936988
 1.677183E+003	      0.937125
 1.701847E+003	      0.937314
 1.726512E+003	      0.937625
 1.751176E+003	      0.938101
 1.775841E+003	      0.938778
 1.800505E+003	      0.939661
 1.825170E+003	      0.940736
 1.849834E+003	      0.941996
 1.874499E+003	      0.943397
 1.899163E+003	      0.944887
 1.923828E+003	      0.946410
 1.948492E+003	      0.947893
 1.973156E+003	      0.949302
 1.997821E+003	      0.950598
 2.022485E+003	      0.951715
 2.047150E+003	      0.952640
 2.071814E+003	      0.953375
 2.096479E+003	      0.953912
 2.121143E+003	      0.954280
 2.145808E+003	      0.954506
 2.170472E+003	      0.954629
 2.195137E+003	      0.954697
 2.219801E+003	      0.954756
 2.244465E+003	      0.954850
 2.269130E+003	      0.955021
 2.293794E+003	      0.955297
 2.318459E+003	      0.955698
 2.343123E+003	      0.956236
 2.367788E+003	      0.956903
 2.392452E+003	      0.957685
 2.417117E+003	      0.958571
 2.441781E+003	      0.959509
 2.466446E+003	      0.960476
 2.491110E+003	      0.961444
 2.515774E+003	      0.962356
 2.540439E+003	      0.963199
 2.565103E+003	      0.963941
 2.589768E+003	      0.964561
 2.614432E+003	      0.965059
 2.639097E+003	      0.965432
 2.663761E+003	      0.965691
 2.688426E+003	      0.965858
 2.713090E+003	      0.965952
 2.737755E+003	      0.966005
 2.762419E+003	      0.966047
 2.787083E+003	      0.966108
 2.811748E+003	      0.966215
 2.836412E+003	      0.966392
 2.861077E+003	      0.966651
 2.885741E+003	      0.967005
 2.910406E+003	      0.967452
 2.935070E+003	      0.967986
 2.959735E+003	      0.968595
 2.984399E+003	      0.969253
 3.009064E+003	      0.969942
 3.033728E+003	      0.970637
 3.058393E+003	      0.971307
 3.083057E+003	      0.971938
 3.107721E+003	      0.972500
 3.132386E+003	      0.972975
 3.157050E+003	      0.973358
 3.181715E+003	      0.973651
 3.206379E+003	      0.973855
 3.231044E+003	      0.973986
 3.255708E+003	      0.974058
 3.280373E+003	      0.974096
 3.305037E+003	      0.974122
 3.329702E+003	      0.974162
 3.354366E+003	      0.974235
 3.379030E+003	      0.974363
 3.403695E+003	      0.974555
 3.428359E+003	      0.974823
 3.453024E+003	      0.975168
 3.477688E+003	      0.975577
 3.502353E+003	      0.976049
 3.527017E+003	      0.976567
 3.551682E+003	      0.977102
 3.576346E+003	      0.977647
 3.601011E+003	      0.978171
 3.625675E+003	      0.978662
 3.650339E+003	      0.979101
 3.675004E+003	      0.979471
 3.699668E+003	      0.979770
 3.724333E+003	      0.980000
 3.748997E+003	      0.980162
 3.773662E+003	      0.980264
 3.798326E+003	      0.980322
 3.822991E+003	      0.980353
 3.847655E+003	      0.980375
 3.872320E+003	      0.980405
 3.896984E+003	      0.980463
 3.921648E+003	      0.980563
 3.946313E+003	      0.980715
 3.970977E+003	      0.980925
 3.995642E+003	      0.981196
 4.020306E+003	      0.981526
 4.044971E+003	      0.981909
 4.069635E+003	      0.982325
 4.094300E+003	      0.982763
 4.118964E+003	      0.983208
 4.143629E+003	      0.983649
 4.168293E+003	      0.984057
 4.192957E+003	      0.984424
 4.217622E+003	      0.984742
 4.242286E+003	      0.985004
 4.266951E+003	      0.985205
 4.291615E+003	      0.985348
 4.316280E+003	      0.985442
 4.340944E+003	      0.985496
 4.365609E+003	      0.985524
 4.390273E+003	      0.985541
 4.414938E+003	      0.985564
 4.439602E+003	      0.985606
 4.464266E+003	      0.985682
 4.488931E+003	      0.985803
 4.513595E+003	      0.985973
 4.538260E+003	      0.986197
 4.562924E+003	      0.986471
 4.587589E+003	      0.986793
 4.612253E+003	      0.987151
 4.636918E+003	      0.987530
 4.661582E+003	      0.987919
 4.686247E+003	      0.988301
 4.710911E+003	      0.988666
 4.735576E+003	      0.988997
 4.760240E+003	      0.989284
 4.784904E+003	      0.989522
 4.809569E+003	      0.989706
 4.834233E+003	      0.989841
 4.858898E+003	      0.989929
 4.883562E+003	      0.989981
 4.908227E+003	      0.990007
 4.932891E+003	      0.990021
 4.957556E+003	      0.990038
 4.982220E+003	      0.990071
 5.006885E+003	      0.990132
 5.031549E+003	      0.990231
 5.056213E+003	      0.990375
 5.080878E+003	      0.990569
 5.105542E+003	      0.990809
 5.130207E+003	      0.991092
 5.154871E+003	      0.991409
 5.179536E+003	      0.991749
 5.204200E+003	      0.992102
 5.228865E+003	      0.992453
 5.253529E+003	      0.992788
 5.278194E+003	      0.993095
 5.302858E+003	      0.993365
 5.327522E+003	      0.993593
 5.352187E+003	      0.993773
 5.376851E+003	      0.993905
 5.401516E+003	      0.993995
 5.426180E+003	      0.994049
 5.450845E+003	      0.994077
 5.475509E+003	      0.994092
 5.500174E+003	      0.994105
 5.524838E+003	      0.994131
 5.549503E+003	      0.994181
 5.574167E+003	      0.994265
 5.598831E+003	      0.994390
 5.623496E+003	      0.994559
 5.648160E+003	      0.994774
 5.672825E+003	      0.995030
 5.697489E+003	      0.995322
 5.722154E+003	      0.995640
 5.746818E+003	      0.995972
 5.771483E+003	      0.996305
 5.796147E+003	      0.996628
 5.820812E+003	      0.996928
 5.845476E+003	      0.997194
 5.870140E+003	      0.997422
 5.894805E+003	      0.997604
 5.919469E+003	      0.997740
 5.944134E+003	      0.997834
 5.968798E+003	      0.997892
 5.993463E+003	      0.997923
 6.018127E+003	      0.997937
 6.042792E+003	      0.997948
 6.067456E+003	      0.997968
 6.092121E+003	      0.998009
 6.116785E+003	      0.998081
 6.141449E+003	      0.998192
 6.166114E+003	      0.998347
 6.190778E+003	      0.998546
 6.215443E+003	      0.998788
 6.240107E+003	      0.999076
 6.264772E+003	      0.999387
 6.289436E+003	      0.999715
 6.314101E+003	      0.999801
